"Subject","Label","Mean_features","Stdev_features","body_acc_x_train_mean","body_acc_y_train_mean","body_acc_z_train_mean","body_gyro_x_train_mean","body_gyro_y_train_mean","body_gyro_z_train_mean","total_acc_x_train_mean","total_acc_y_train_mean","total_acc_z_train_mean","body_acc_x_train_stdev","body_acc_y_train_stdev","body_acc_z_train_stdev","body_gyro_x_train_stdev","body_gyro_y_train_stdev","body_gyro_z_train_stdev","total_acc_x_train_stdev","total_acc_y_train_stdev","total_acc_z_train_stdev"
1,"WALKING",-0.318960627361468,0.452813669007179,-0.000598411659572368,-0.00343591268224342,-0.00308040846396875,-0.0555502911444885,0.0221323452675062,-0.0057427844143347,0.951557751408717,-0.337849416369819,0.0376397112492143,0.258939983000235,0.187841186272941,0.130525200494542,0.46735526741317,0.40023521346312,0.296053813664002,0.258096134870731,0.186844654980539,0.128557339046971
2,"WALKING",-0.385694210106277,0.471762054184258,-0.000145270775869969,-0.000685809449602754,-0.000482767714586864,0.00680475583131621,-0.00537360199819915,-0.00857438226412871,0.992633570815678,-0.241114567590585,0.00885363410270392,0.369792729099626,0.20284357505076,0.141902447695731,0.632429416062467,0.379992803083229,0.392583243429825,0.369333341376732,0.2020032030134,0.140727908102655
3,"WALKING",-0.386865862874514,0.47042947054323,-0.000289874980438847,-0.00446962568807126,-0.000562226860778556,0.0489162519904281,-0.00424125979061665,0.00348191013845744,1.00675432905442,-0.156654196887186,0.10286659935556,0.181297932808211,0.110164506749675,0.0807471467480338,0.344571116666797,0.228350139230638,0.223373439733095,0.180439845473836,0.107928090312244,0.0764250581089689
4,"WALKING",-0.430527411183803,0.485560386633753,-0.000381333808279167,-0.000320893095053125,-0.000449590973644792,-0.0141164282717997,-0.00175327800893281,0.00718353271024354,0.398824181889974,0.23525320350206,0.509291085556354,0.0902748500108983,0.0570520879394201,0.0822169481654165,0.165191533884402,0.378232165898696,0.134375622719647,0.086636872767523,0.0561798652713631,0.0809714190291514
5,"WALKING",-0.37852873140792,0.471353212636738,-0.0057844339917502,-0.00300411581905929,0.0107305123100225,-0.00603878352840039,-0.000864997661770368,-0.0018159939983743,0.936165952134487,0.0671873016092494,0.0824369228881696,0.0144859849866012,0.0241832305550238,0.0271641595864796,0.0389847395086756,0.0467838837848989,0.0392430997734838,0.0116874735507366,0.0155310465268204,0.0199795047726466
6,"WALKING",-0.336991234445959,0.463330854806908,-0.00312134557334238,0.000172118875604715,0.00283691981999915,-0.00866622015881187,-0.00042760838389079,0.00804641773257484,0.785286434242736,-0.0809353339334868,0.273373344199594,0.0122549252211376,0.0143784137885602,0.0142433776424605,0.0264784721360654,0.0351806461020222,0.0274047773038384,0.00725070170790331,0.0104753865103818,0.0109036885551942
7,"WALKING",-0.30631318429945,0.458956968238673,-0.000628083117773575,0.00078687962094449,0.00299316051519901,0.00116537191365378,-0.00625915343325918,0.0105323373303259,0.858513946954496,0.181384475075578,0.0684555472778372,0.00785946605127635,0.0131280736849386,0.0157733987331324,0.0247382310933482,0.0285994355178772,0.0246864962039065,0.00582797670117327,0.00755453367509077,0.00885039906254514
8,"WALKING",-0.299687505671125,0.460467697849147,-6.37959344496093e-05,0.000469749797969401,-0.000857657086938249,-0.00319918783680013,-2.79750041373697e-05,-0.00164234223101725,1.00339305861003,-0.210656747729655,0.0545147972265951,0.0396911253462902,0.0449329040909234,0.0276815111327083,0.110797718417818,0.0855857021199043,0.0788204024068382,0.0390695652843267,0.0428235099781188,0.0259537214625997
9,"WALKING",-0.370781496375482,0.467926045703065,0.00129083454900807,-0.00223285136065775,-0.00555940096972882,0.0261320785842768,-0.00656927672491211,0.00785267592775421,0.921469300135216,0.0570731684636418,0.275972640563401,0.0852764946299639,0.0692072194768317,0.0657626998895487,0.228001890360282,0.201275367575887,0.103002808515494,0.0824447749057546,0.0642857190357841,0.0577961288888797
10,"WALKING",-0.32564189646583,0.460240570094358,-0.00130530122993691,-0.000666379414421285,0.00179668433571993,0.00489346241149057,-0.00446627967743072,0.0133395348703903,0.88720004993809,0.0175245807194266,0.177240884994574,0.073611253476128,0.0776367951049527,0.0555647819403876,0.262138486910081,0.166284769908004,0.109228491235981,0.0710744750878756,0.0766567750178488,0.0538833427825311
11,"WALKING",-0.431253930319823,0.47799732886795,0.000650302823411017,-0.000301953573342161,0.000622048281365201,-0.0322448697532045,0.00872661044990996,0.00531702987277807,0.987192695087394,-0.235515839794915,-0.0664980948099444,0.218445066980857,0.128794069694384,0.115625120426612,0.34168527837198,0.353369585122317,0.251378406758677,0.217793404490077,0.127128454953417,0.112510178792742
12,"WALKING",-0.354241834815981,0.466903135522874,-0.00025878430448,0.00271004300941563,0.00102598331877756,-0.00822057257069719,0.00147072002892266,0.00217248724254313,0.99627621946875,-0.100015216301483,0.073686155546489,0.062934421075433,0.0449950078767912,0.031845796698866,0.0992446674616203,0.0811162179065303,0.0774369155190376,0.0613430893800477,0.038610119758196,0.0275224652004798
13,"WALKING",-0.315744575715759,0.461722311866801,0.00140486451789885,-0.000768534003248355,-0.000884146768359375,-0.0606471707893366,0.0178726280260387,0.0167969937370669,0.997937051493969,-0.17136921618199,-0.154765203084105,0.309607757928342,0.15518836183486,0.134056575406239,0.473241234100685,0.397675267432339,0.365960255755986,0.308930636297171,0.153768001962139,0.132725410055484
14,"WALKING",-0.385429903549508,0.460153391613745,-0.00357189276188869,-0.000404712048420021,-0.000293758755105138,-0.0113439394341957,0.00487912025213295,0.00335821017670644,0.251566139484057,0.601778627728814,0.287328794484772,0.0632716095797898,0.0606580708916755,0.0439011295514519,0.173620956027312,0.190359338551207,0.114295255002323,0.0626025284933352,0.0600786718022946,0.0430102281720535
15,"WALKING",-0.390526282476396,0.470930092491822,-0.00041922592348452,0.000675345421935069,0.000499740104270833,0.00402831278737427,-0.00482593911934172,0.0063795742984537,0.493510139031921,0.472867949211516,0.38353521305923,0.00866499329038617,0.00772514807900821,0.00896315213261226,0.0173923240738786,0.0317208221150538,0.0177315562429607,0.00620892694863692,0.00630126741268095,0.00742974225070746
16,"WALKING",-0.431362808379042,0.477181248917123,-0.00517530010865257,0.00915362860655735,-0.00556611766777451,-0.0189015814970928,-0.000197618455721323,-0.00506564397114583,0.739417997588848,0.375517648558517,0.272706027816345,0.0128860943642941,0.0151510386615351,0.0227533388710023,0.0494922498761083,0.0333715811131301,0.0383535573516093,0.00971126372191373,0.00941098629906606,0.0151352433522598
17,"WALKING",-0.387039462708526,0.471340331643968,-0.000563136568668673,-0.000850432717060963,0.00158719293872679,0.0142963102469156,-4.14039710384223e-05,0.0137177292950038,0.217449603739754,0.795498784125256,0.452047839241419,0.0102883556462714,0.0100103844081267,0.0102547811481178,0.029658933269107,0.0228462803884839,0.0205676050708544,0.00979804593976698,0.00906452452526785,0.00968305721668517
18,"WALKING",-0.435516505160049,0.474722311170782,-0.000929704900679436,0.000560849814035435,0.000683250555520787,-0.0300098170655561,0.000998334307321428,0.0154323046014286,0.411463740952288,0.259923009513119,0.46397839004029,0.0857631913142461,0.0614042116384408,0.0522993658121973,0.168962199013349,0.158349417687226,0.132194045864908,0.0839657835258583,0.0594838252914735,0.0508799266523129
19,"WALKING",-0.237489308036276,0.441504143882561,-0.00171301358291767,-2.62670149173677e-05,0.00121805147522236,0.00488080932911659,-0.0108650744504988,-0.00882361908157151,1.00997823117488,-0.112868747163263,-0.0110427735142728,0.312910006163736,0.192455040595619,0.111611922709491,0.468177727938611,0.410742845132302,0.354850730629526,0.31225105995755,0.190973282489221,0.109704485711779
20,"WALKING",-0.258485445102246,0.459074668156067,-0.000426456380289522,0.00108509180846952,0.000900662471775429,0.00433908079396599,-7.17722456956497e-05,0.000760738169016544,0.98016683192402,-0.0702656196523407,0.108347159239049,0.265084008292059,0.149273895658465,0.133598806567173,0.334266138075277,0.595379910957896,0.272978839907677,0.264591467833058,0.148773283883157,0.132187969248701
21,"WALKING",-0.33064398814759,0.462264350693345,-0.00173220729780799,0.000532093908666076,-0.000602965909232019,-0.00832589697504357,-0.00228196835640264,0.00364483305309796,0.759607759786592,-0.0491166856772837,0.207086861803167,0.0243798010093703,0.0212652258664369,0.0198165076890157,0.0634178477608778,0.0678807624664715,0.0421196855532601,0.0197890681239247,0.0185892150555511,0.0175543559193381
22,"WALKING",-0.273823397489604,0.460230088680268,-0.000915252548894192,-0.00166633535303023,0.000993990073440557,0.0244683483339266,-0.0110615692264918,0.00527381989821634,0.332850326506624,0.349820880670601,0.445754480636889,0.0955032074195984,0.0833484754929531,0.0439568454622637,0.280937823613747,0.232279554655561,0.128387252473665,0.0927741912959475,0.0817335855730455,0.0426422168152123
23,"WALKING",-0.264303075927469,0.464580072959625,-0.000763175678404528,-0.00291865442547405,0.000344298367629767,-0.0572133221074894,0.00913476167992691,0.00149531539883395,0.966630264420021,-0.211650040646213,-0.0948861158087209,0.24648796148326,0.17393676720906,0.160981133868154,0.458386605127856,0.555300764808425,0.308545640257067,0.245835394282857,0.172277490820177,0.1584175148387
24,"WALKING",-0.415972441184976,0.474827163625012,-0.00058146715387527,0.000795139111559806,0.00126247644026131,-0.0235016015125808,0.00517619957163254,0.00108936626769666,1.018150782368,-0.134026081177252,-0.00245837453814116,0.218444409345481,0.144768378917235,0.158365751739569,0.547837896066598,0.759968145741672,0.399938480318444,0.218019841356971,0.143568760181468,0.154927991404714
25,"WALKING",-0.460842122215599,0.482757503377511,-0.00531517704290031,0.00277286460866521,0.0061574377152223,0.021679285565766,-0.0190660209153799,0.0109550489135008,0.72715584090266,0.0783355171191533,0.131823623322424,0.0291480118173846,0.0236843644490908,0.0299580099022846,0.0465061246312947,0.0865282673782299,0.0466790493296315,0.0205402994905366,0.0188139798056721,0.0222266892999272
26,"WALKING",-0.392001593850462,0.465085881342393,-0.00228812696744465,-0.000754309108882415,0.00098172322296107,0.0220375828980403,-0.0145387677972007,0.000159017679928496,0.993149900887182,-0.218022503323652,0.085196447683456,0.343680633300121,0.183372686965089,0.12772400635396,0.546919236463382,0.501866662646037,0.292248991237046,0.343048625048231,0.18193878052325,0.125141341808583
27,"WALKING",-0.377771272094104,0.468490345338959,-0.00207769069231716,0.000346900536089912,-0.00310643039798109,0.0293543882393484,0.00940411456732593,-0.0112792930335096,0.940311458497807,-0.0701725013152741,-0.330321074614145,0.134612685509857,0.100800359811958,0.112083805488052,0.296920747498669,0.224116106699754,0.215177780711788,0.13415415207293,0.0987680006402323,0.109395077028431
28,"WALKING",-0.393787255237739,0.468082416558165,9.53660009045139e-05,0.00190619336167882,-0.000335399250777185,-0.0096245876008967,0.00473008511324537,-0.00138156242521875,0.989765677170139,-0.2653253919981,-0.000904240665509259,0.0219266976707298,0.0185442474539675,0.0200689014173185,0.0503590009385819,0.0452121471625607,0.0335863526786026,0.0206632882689359,0.0161185955418624,0.0171702874574038
29,"WALKING",-0.352879787113793,0.459762037639384,-0.00329584806275855,-0.000497196888627064,-0.00972038955800478,-0.0249146098595268,0.00960091412369104,-0.00279439983446507,0.941492556804245,-0.278997365091294,-0.171359621245946,0.245626534501317,0.14909041534269,0.114749680417605,0.505569673028097,0.475437982338164,0.311280411045243,0.244949106649074,0.147946662719682,0.111600762347113
30,"WALKING",-0.373582576510259,0.458760412836958,0.000663342887379808,-0.00199305429857692,0.00105218781866346,-0.00832687919509615,0.00376636942792067,0.000424563355734855,0.938798682367789,-0.361295096957512,-0.222185608567284,0.308835575381302,0.203807134966145,0.160942989749023,0.474491541651508,0.462675479161138,0.35395949916542,0.308176413199498,0.202464822784031,0.159836272395915
1,"WALKING_UPSTAIRS",-0.40699661814598,0.484862873610122,-0.000834898921163945,-0.00193033643379127,-0.00230245761473202,-0.0073938272101418,-0.000439498309564564,0.00444729559077948,0.959982209596108,-0.195359950734699,0.0699509444973467,0.0348003156126977,0.0403199428471835,0.045823149840338,0.138954662864954,0.0796638451840515,0.105953002905199,0.0337631204818133,0.0370065652473882,0.0412277813330003
2,"WALKING_UPSTAIRS",-0.361863155795,0.468316555644725,-0.00154712060949023,-0.000735933956932617,0.000716606436927832,-0.0203601757192187,0.00849071089226823,-0.00214417856625391,0.998645551416016,-0.192495742926283,-0.0555704965656693,0.0768344537822845,0.0510455529550892,0.0456343660356957,0.148203507840597,0.11148544049293,0.101639764814045,0.0763494316563008,0.0496637962573903,0.0432306004064516
3,"WALKING_UPSTAIRS",-0.42427187546709,0.483282376118468,-0.00597023724584568,0.00102519241292293,0.00139052165880339,0.00166683086871425,-0.0237176677395164,0.022441948097987,0.495237384871954,0.243742556342809,0.397267905564251,0.0187468290068998,0.0233006935032259,0.0169038901516173,0.0423983486985833,0.0514781900178413,0.0355760155377208,0.0109975802649221,0.0169835217630431,0.0131626437177892
4,"WALKING_UPSTAIRS",-0.415248895106346,0.482351839243592,0.00100897007435397,0.000244807266757812,0.000618260544296755,-0.00857558709324069,-0.00282713508900541,-0.00270809295873197,0.979299333488582,-0.123200264823932,-0.204643006531505,0.291261500546261,0.178278081044179,0.213081087833335,0.45571542772956,0.837446155810966,0.420322762061323,0.290577429784407,0.175428201190703,0.2119639705534
5,"WALKING_UPSTAIRS",-0.356251016330448,0.471090645923304,-0.000671372468196476,-0.00368547804277194,-0.00355095441723903,-0.00887646049823138,0.00151981077510539,0.00946675207256317,0.301658480519441,-0.0174055822060539,-0.0774799053303358,0.0937404594703545,0.0635149514957572,0.0604539950972851,0.20954761368991,0.190854171672388,0.14279635082866,0.0900630665371981,0.0611847025195738,0.0579878071336297
6,"WALKING_UPSTAIRS",-0.33056578945445,0.464961373082519,0.00140233104153339,0.000322789050753676,-0.00131483887353401,-0.023452449597212,0.0082590985628799,0.00814651187948223,0.981041750375306,-0.0714899026080116,0.0138881951219393,0.269383075516624,0.136383116877268,0.117769232740104,0.406182287195059,0.472182498871858,0.37251804082627,0.269019968262966,0.135761322172944,0.116430921601611
7,"WALKING_UPSTAIRS",-0.427384416723284,0.47898739095372,-0.000416269315811887,0.000564968094738051,0.000559053769730392,-0.0301191570878287,0.0100014083390196,-0.00236640947660815,0.858735251254596,-0.0478468012826287,-0.00269020738820466,0.221475855062106,0.140243739590698,0.103658313246391,0.347216453415067,0.468131619124247,0.221810042179859,0.220824330820479,0.139393270485246,0.102236348059544
8,"WALKING_UPSTAIRS",-0.292628029204524,0.465029314613921,0.000750931085353087,0.00157196307233392,-0.00102074545469306,0.00130247093212043,0.00341636841271799,0.00468419979732355,0.785670892740091,0.337718233894569,0.187714396461509,0.00493404490735593,0.00656601663921534,0.00688056881014413,0.00924796889410942,0.0124279898026327,0.0158285273548167,0.00302215401427656,0.00558952285390926,0.0056355094584407
9,"WALKING_UPSTAIRS",-0.425232463524944,0.482471724772422,-0.00766848736301371,-0.0228487265763394,0.0105707515418087,-0.0280772389636558,0.00192514230109455,-0.0107923697413286,0.657013233738042,0.240069508681633,0.220702479914222,0.0142133708225739,0.0243575450723959,0.024198798758075,0.0471825996312758,0.0221205476563896,0.026272863598907,0.0139191749808736,0.0273280526125596,0.0277788639294967
10,"WALKING_UPSTAIRS",-0.345147264779129,0.463417154158478,-0.00108322375472207,-0.00176644732721177,-0.000362025519850399,0.0617091735872615,-0.0162282454219382,-0.00498012847676031,0.784959533211436,0.0495807693977394,0.158957659638886,0.1721987191347,0.120616714403033,0.102599580723809,0.412491632424892,0.324308167605709,0.22022647335402,0.171245259180395,0.119264101425963,0.0992995304409929
11,"WALKING_UPSTAIRS",-0.43527506672087,0.494681275282595,-0.000133916893214844,0.000161245186639178,6.67236242870371e-05,-0.027637764185735,0.0123264323871788,0.00494322822574074,0.985115490422454,-0.221669386697917,-0.146443224656771,0.100263979237532,0.0667099807677151,0.0623344990699083,0.197560776396869,0.162099220172265,0.133309760516744,0.0995702957737149,0.0648233578818667,0.0601268250555329
12,"WALKING_UPSTAIRS",-0.421208436529481,0.480701533384862,-0.000501342198031851,-0.000146191017172566,0.000908093991489333,-0.000139056081642728,-0.00719174118346214,0.0186150727693369,0.412558569522236,0.551408506929086,0.474576777602666,0.00909314624686223,0.00635568673372707,0.00857705982052201,0.0126349730321537,0.0170421163101827,0.0195397656649713,0.00372119932464618,0.00394601138498007,0.00530815781367104
13,"WALKING_UPSTAIRS",-0.410098022179038,0.482708483840387,-0.00114754881653432,0.00144538911205185,-0.000666066368112216,-0.00670699334521903,0.00101822342154886,0.00357118188500795,0.976664886505682,-0.163321389552983,-0.110943932493878,0.0599139063225658,0.0535744551126893,0.052663783634755,0.136632511690543,0.106693719693228,0.12944064848283,0.05886648623896,0.0503878466397506,0.0489040324931643
14,"WALKING_UPSTAIRS",-0.28370160575401,0.512926664127434,-0.00104190107138021,-0.00121345288655527,-0.00283092145945312,-0.00162054227708333,0.00447035116100984,-0.00909445012715567,0.953103563266782,-0.323148500563788,-0.0913352032058883,0.317768522236534,0.247868490945495,0.143655750796069,0.59281862110166,0.646293406183445,0.559872613618406,0.316847767630168,0.246453424948512,0.141881986147243
15,"WALKING_UPSTAIRS",-0.393705621037038,0.481372456838164,0.000601303227308919,-0.00177537549689004,-0.00168232962232422,-0.0259820224058561,0.00415876938058268,0.00214110633871468,0.798484879801432,0.121081477750648,0.0524051062955501,0.158186546494628,0.112260913551221,0.104848624167774,0.292016540729785,0.299118142000408,0.221023191395774,0.157331626895585,0.111414985303028,0.104037604491317
16,"WALKING_UPSTAIRS",-0.440136081876802,0.485224638607733,-0.000232713803424939,-0.000171063159004289,-0.00155743236231265,-0.00322039429799326,-0.00259525400875153,-0.00154037303941942,0.949705148161765,-0.25578898703462,-0.0332372145661703,0.229735287038888,0.186112236821092,0.132743082412,0.458826252460333,0.705474526943799,0.310834632175838,0.229430320804381,0.18580961528773,0.130538271094452
17,"WALKING_UPSTAIRS",-0.401339186476553,0.479499918969812,0.00155420421188721,0.000100228888404948,-0.00227250502501706,-0.0523644677104492,0.0111889880393978,0.00567296347996094,1.00192614262695,-0.226234039571322,-0.123114812684185,0.240158057096043,0.15877415601057,0.112885620659219,0.478685375923725,0.339166470599646,0.25523241634272,0.239641459963725,0.157979561488481,0.110512706789183
18,"WALKING_UPSTAIRS",-0.469649211912367,0.491060559311154,0.000814275973471174,-0.002905547713125,-0.00284096869044855,-0.121311377089903,0.0412858696617201,0.0196463198292295,0.979129899326509,-0.249606062012465,-0.170198305731276,0.315460428321837,0.177784064003402,0.126266606630842,0.537239784380528,0.494934433744514,0.355363639164416,0.3148771048296,0.176261890094861,0.12424041010665
19,"WALKING_UPSTAIRS",-0.316321227004264,0.458271155368604,0.00134959189585117,-0.00376982744161758,0.00024573585984375,0.103287543302209,-0.0115440474247773,-0.0127733305146445,1.00841251876953,-0.19131934019166,0.0456493861200672,0.170555038795386,0.107578644248505,0.0745302095730583,0.253078260206715,0.252632698151322,0.202598250647371,0.16992998431636,0.104994809635005,0.0700129711689279
20,"WALKING_UPSTAIRS",-0.336677328689116,0.468210929247275,-0.00139312528900582,-0.00615062492923254,-0.00168106234098652,0.131591893154971,-0.0356314793935202,0.00319234709690564,0.993303934160539,-0.200280992043827,0.0414196616401838,0.292331566725574,0.147351577843706,0.190761369886896,0.574243628119563,0.752951359246717,0.297944321489107,0.29107717766703,0.145059672875838,0.18464656019433
21,"WALKING_UPSTAIRS",-0.381815519974737,0.473671116607554,-0.00416734808269847,0.00185067480443418,-0.00350942039489545,0.0148386390752876,-0.018506397723763,0.0232699447769304,0.728534871575266,0.169306572746736,-0.126333819693816,0.108998139238683,0.0704907224863109,0.11528432724065,0.196296460932313,0.274213141255497,0.153662816665071,0.101041498920818,0.0672906085545692,0.111884092362712
22,"WALKING_UPSTAIRS",-0.304991498962871,0.469049343295226,0.000411190715768229,-0.00372766494997396,0.000721166432738095,0.0858758448435231,-0.0340444245976004,-0.00322903946328125,1.00385098984375,-0.205231446131657,-0.00446746674489211,0.29293367761431,0.206981947468693,0.184690340123311,0.577190341854462,0.716410552460823,0.373067132818785,0.29234635721647,0.206180681371719,0.181836158055823
23,"WALKING_UPSTAIRS",-0.369419263765587,0.467285420179794,-0.00121527609445466,0.00025574110694424,-0.0024271940277477,0.0292612171925009,-0.00265991591534611,-0.0116584797422025,0.838696665382966,0.194297946942417,0.0521171794734988,0.0521125249591539,0.0561702681183206,0.0479927747586326,0.0937074111144062,0.1240606860828,0.164761578032772,0.0513029870381613,0.0507148984531924,0.046118549322551
24,"WALKING_UPSTAIRS",-0.43425010956093,0.475709563855667,-0.0011486063021054,-0.0036909585082786,-0.00269237892371557,-0.0117110678759719,0.00731997823402278,0.00157041796953125,1.00001782869439,-0.175535687132191,-0.0103490554255694,0.252869628288293,0.160238683265107,0.174556500463399,0.518919324375923,0.668552353610166,0.370019422129376,0.251356466546833,0.154617120608225,0.16411087797252
25,"WALKING_UPSTAIRS",-0.48551223324769,0.493089266961923,-4.43160922887017e-05,-0.00276411892149543,0.00209800648412671,0.0434351054043582,-0.00615702549816346,-0.0251099615779206,0.755233639098558,-0.118115138671127,-0.197340032232332,0.206278805758484,0.171110765389469,0.204560152210904,0.394311255535782,0.734381854166315,0.474218303440489,0.205440335558898,0.168082261055909,0.201326257226079
26,"WALKING_UPSTAIRS",-0.4116332208676,0.480169069548581,0.00108632533797614,0.00285240037825159,0.0066418048106215,0.00819897289058259,-0.000367317821213637,-0.00252482828190963,1.00478077622159,-0.138601033206364,-0.0588467876316051,0.0449657838460748,0.0340006120127148,0.0272805828265216,0.101788758592676,0.0797936641906304,0.0602299847018458,0.0428269659043727,0.0312310814754589,0.022031232063554
27,"WALKING_UPSTAIRS",-0.426230303652423,0.486744551274259,9.2374680487117e-05,0.00160169659365165,0.000314140951395833,-0.00177221144675407,-0.00546831997465319,0.000152224824882966,0.990093524647672,-0.0230099390439338,-0.0774676133026961,0.00372150503368641,0.00867176109589807,0.00865611163690351,0.0184446180728251,0.0141836922241877,0.00973203078903421,0.00313919451962953,0.00593261912793368,0.00703332210734803
28,"WALKING_UPSTAIRS",-0.401092965937606,0.473584351968701,-0.00117805212431235,0.0031262046850216,-0.000416754273604013,0.00335536324835616,0.00175247743872595,0.0114761707479758,0.727502929090074,0.307467526894914,0.352143164749084,0.00935561264008578,0.0121006051182117,0.0128434944121725,0.0169728976731179,0.0300079845439819,0.0176515510650208,0.00618870700321168,0.00787572061361109,0.00944487617790296
29,"WALKING_UPSTAIRS",-0.364429747315138,0.485009059372236,-1.94579563620855e-05,0.0002139517167103,-0.000241787248446955,0.00749501940340115,0.0147445011486055,0.00143113497772063,0.83657266278699,0.133951169462532,0.0989399161830357,0.00621955187443026,0.00762819121497643,0.00890460249246789,0.0120548557294126,0.0256837324808741,0.0110827461872575,0.00437241872031701,0.00525891365933677,0.00743416858365431
30,"WALKING_UPSTAIRS",-0.439369648728613,0.489520960437359,-0.000391251944889183,-0.000421710545545913,-0.000987267924832332,0.00305127572421034,-0.00114499242694856,0.00628850653708678,0.974994689206731,-0.242054286128606,-0.0594310380637019,0.0105256724348726,0.016158191709155,0.0156388013231779,0.0531576191282674,0.0414604304566209,0.0307432284470205,0.00994162663432403,0.0142666624134604,0.0126870271434143
1,"WALKING_DOWNSTAIRS",-0.296530815648418,0.455942536539647,-0.00481167284997369,0.00521465612966295,-0.00657175840112149,-0.0247310276327439,0.00919945616151307,0.00616230619560108,0.920097650717475,-0.150086592938329,-0.124163167009547,0.16395012122007,0.12678985109572,0.119935060560045,0.344563160211454,0.28261228486511,0.275606767799687,0.162850945527983,0.123411664779955,0.116824675368526
2,"WALKING_DOWNSTAIRS",-0.257595787043638,0.466750720072379,-0.00196600263262633,-0.00402723670618185,-0.00189933501110239,0.143726176482314,-0.0496665504658777,-0.0345257322717487,0.975792036103723,-0.267357299462533,-0.0443050589771714,0.353389881118276,0.201593372170171,0.135982565306523,0.605508135197271,0.354807604567688,0.356366503799492,0.352647573757789,0.200719897929969,0.133342919193892
3,"WALKING_DOWNSTAIRS",-0.350315571141184,0.471662769550104,0.000544150634074299,0.00453525996889381,0.00186471624404037,-0.0180515252917422,0.0172045648132156,-0.0089041369431604,1.01666709500957,-0.00700876153106824,0.105288331872385,0.0151975004178712,0.0251923309707159,0.0211440620751708,0.0685248055319423,0.0525933496241326,0.0457325257145541,0.0123894709767925,0.0172376196385904,0.0163069842766112
4,"WALKING_DOWNSTAIRS",-0.363534421558595,0.485677790673484,-0.00151206287688889,-0.00297183783351215,-0.00380660585152674,0.00806369852871702,-0.00583886384364583,-0.00423494415278472,0.866517564975694,-0.0640007580247743,-0.0264165505327326,0.217623688676442,0.142073025257111,0.183480429905077,0.391179709273582,0.806855052451837,0.330580177125226,0.216639321685706,0.139591235864719,0.182112835238271
5,"WALKING_DOWNSTAIRS",-0.296219671605942,0.480005764805249,0.00118841741939727,0.000327511220927527,0.000559150678874335,-0.00541977140345512,0.00845417499754588,0.00797259588461802,0.478137990734807,0.233401001464604,0.298499070028923,0.0105245689334605,0.010018841517406,0.0120595556455171,0.0314184369487471,0.0380182793473064,0.0199805482956756,0.00839886163522458,0.00903375806921613,0.0110904123365395
6,"WALKING_DOWNSTAIRS",-0.196133513592142,0.478857916709366,-0.000437379226299479,-0.000118567061933236,0.000753565055399414,-0.00557095059707031,-0.00749477642879557,0.00768028820667754,0.181648038095492,-0.269899797546351,0.427798489432783,0.051473601276083,0.0268104507986124,0.0259187390019046,0.0747583216099844,0.0902381180586708,0.0717739435790327,0.049048430609651,0.0255369691642258,0.0248287719948171
7,"WALKING_DOWNSTAIRS",-0.316900472856072,0.473673151640367,-0.000863422700870346,-0.00168057187450824,0.000235287097106715,0.0110758413316712,-0.00459224271739362,0.010183993026129,0.158211577722733,0.728529764511303,0.312908735008311,0.0117569636287295,0.00936612925959081,0.0120927498706556,0.026324773580583,0.0317237320420633,0.0185367870816252,0.00796057502830966,0.00683364551200088,0.00879748793958624
8,"WALKING_DOWNSTAIRS",-0.19215355223365,0.459182678142744,-0.000733673204381579,0.00416392911680592,3.59080615914474e-05,-0.00632538552430674,-0.00150639976918709,-0.00707209931486184,0.991721237068257,-0.0438729205647615,0.0667626638365543,0.00408706449927024,0.0120085895096743,0.00881936977130508,0.025484548912082,0.0162423144771259,0.020625749727064,0.00300962847974278,0.00715261756285168,0.00643803010033833
9,"WALKING_DOWNSTAIRS",-0.311857971427551,0.476586251229959,0.00611674547634077,0.0248322138617375,-0.00786941670895145,0.0496688721229083,0.00400778234135621,0.0354753655107615,0.623182855123586,0.118816511442708,0.295342613828473,0.0288959138214561,0.0538381993854288,0.0390553834689895,0.0921525714544402,0.06549211324194,0.046959952630298,0.0251944506893588,0.0606342633754009,0.0314264005641333
10,"WALKING_DOWNSTAIRS",-0.261455692517036,0.464262753279984,0.00148676632092229,-0.00140592354715543,0.00121759239418133,0.0426210216810629,-0.0157147026556435,0.0168665416110037,0.443257387528783,0.362658320770543,0.360961677999507,0.139972272291161,0.0829958859487021,0.0531933033850315,0.333698673688675,0.20558661457923,0.138596816266729,0.135901223940239,0.080814989544979,0.0509892982914073
11,"WALKING_DOWNSTAIRS",-0.348451179109337,0.477359151100509,-0.00209867196178668,-0.00248741068657303,0.000587734781238451,0.00557363994602582,-0.00308730179522758,-0.00254249609172894,0.967250401052989,-0.272447970443614,-0.107322364190803,0.204498119841811,0.134178978349096,0.119029403659766,0.40084991466865,0.342680556289087,0.274434934087579,0.203677960778859,0.131485608246817,0.115042205891983
12,"WALKING_DOWNSTAIRS",-0.31001313376658,0.479888602476231,0.000775340759961685,-0.000684700450241848,0.00015176432283373,-0.00839912073182847,0.00415067342229008,-0.0207892778789201,0.985544273539402,0.0438488421263587,0.135422133131069,0.00434289105704374,0.00835481300487364,0.00953090148508636,0.0109712572018786,0.0157252702703873,0.0145987914431734,0.00296146687773405,0.0043785493040977,0.00678314596832549
13,"WALKING_DOWNSTAIRS",-0.316095199296913,0.463972591111863,0.000317369050022275,6.80461235455438e-06,-0.00456084635441423,-0.0909478463138401,0.030970265070379,0.0289324954929521,0.976984626645612,-0.197094616613162,-0.204286969811104,0.175936786328144,0.102569421090022,0.0978034431186432,0.279144083999937,0.23273502015713,0.255539783915006,0.175405169938213,0.100500314839913,0.0964228891917236
14,"WALKING_DOWNSTAIRS",-0.201207867118513,0.475449971640248,-0.000142656490555556,-0.000513417098881944,-0.00111935218947917,-0.00619452524895833,-0.00228282993541667,0.00424931312131944,0.973526723246528,-0.313011303707014,-0.0465707206309132,0.296313968702913,0.271782085362463,0.150511282518122,0.699515320774645,0.839341628996342,0.429644303593731,0.295904348045981,0.27134724987985,0.149780268530008
15,"WALKING_DOWNSTAIRS",-0.279278429091561,0.479428318329277,-0.00145106884795647,-0.000604873634392113,0.00157808333545387,0.00762072526845647,-0.0051326158762128,0.00623042530625372,0.326524058102039,0.5306575672016,0.462676395946652,0.0537361109095773,0.0392242067096888,0.0400097206515063,0.0964380137897197,0.118998248042718,0.0791020284030446,0.0494864580280708,0.0386365314462703,0.0383983841781017
16,"WALKING_DOWNSTAIRS",-0.338570000217411,0.480655121109968,-0.0106018662519099,-0.0145193314543391,0.0062367554813243,0.0110266332268085,-0.00094704349152593,0.0124507613286104,0.444809305935173,0.300829914433278,0.271585860984043,0.102595663059598,0.100017301401989,0.0713194019759798,0.24456810735372,0.288042446737271,0.144605634455468,0.0978720123337703,0.0961720021979374,0.0668047500469772
17,"WALKING_DOWNSTAIRS",-0.364955203710825,0.4830477044617,0.0010051317316695,-0.00150922462004416,-0.00212859443657269,-0.043856861439375,0.0132585668788128,0.0067774300072962,0.980964995923913,-0.20621281074392,-0.117946508606456,0.230572783759498,0.152999943184547,0.11010511162813,0.429927092225028,0.328265093493435,0.251573686058899,0.230052328586901,0.15212320981818,0.107906923281915
18,"WALKING_DOWNSTAIRS",-0.437939138200811,0.485295307930413,0.000759584429090909,-0.00251171612285199,0.00154869471850852,-0.0762345435850994,0.0271089675494176,0.00850050177823864,0.983924302372159,-0.243019371537443,-0.166071384268027,0.269887609778534,0.159510400354467,0.125539333662684,0.48043600274608,0.430446542752551,0.380071471067785,0.269213382708533,0.157763819240971,0.12396251588595
19,"WALKING_DOWNSTAIRS",-0.0747904088731778,0.493122291671872,0.00100607368073317,-0.00200209829453285,0.000628024458211138,-0.033544041916847,0.000398766340108172,-0.00439810927473958,1.00519035835337,-0.156612336264463,0.0158448017442007,0.272146241992995,0.150303564897173,0.0988499543032823,0.366295007624645,0.347095401897734,0.289909619013275,0.271597117896364,0.14866594354407,0.0955711955874039
20,"WALKING_DOWNSTAIRS",-0.244979720688491,0.472717733330168,0.00126821467504167,0.000161169573654167,0.00342683890411806,-0.00965268189222222,-0.00543496351913195,-0.00405043575602431,1.00832400703125,-0.0614543908130729,0.0861662415921736,0.375099822629372,0.152197871902258,0.143861798318035,0.636062922128895,0.481567241885818,0.3317616696708,0.374044849073797,0.149036036284665,0.137180911739559
21,"WALKING_DOWNSTAIRS",-0.291053022540883,0.475763340614769,-0.000533890989666319,0.000453248154708334,-0.00129175424401458,0.00663173056288021,-0.00945859446242882,0.00439029416340365,0.504095921457089,0.256147304206656,0.299324695817278,0.0451086468426658,0.0352155553255207,0.0511576555576746,0.102460645886759,0.128740660131749,0.0711278711826427,0.0429093080316576,0.0322222641677422,0.0495848343528527
22,"WALKING_DOWNSTAIRS",-0.287091118615694,0.478014025658662,0.00223913554385851,-0.00106893911208767,-0.00173213487821181,-0.0625810760713325,0.0136362199879123,-0.00816487000926649,1.01267398402778,-0.195134886824067,0.00249452490965712,0.282214121891345,0.209292711406495,0.169395001302713,0.629674274637341,0.665392017569519,0.338358352297083,0.281806626223862,0.208360329419965,0.168083672917512
23,"WALKING_DOWNSTAIRS",-0.200070581238223,0.458292627327726,-0.000479474671953964,-0.000455097633494213,0.00048075952269158,0.0628496016255965,-0.0109056979021328,-0.0285137656511617,0.971323032291667,-0.0764100948149233,-0.0212118615237847,0.0784209238008709,0.0686814801540885,0.0588369796497987,0.149700675568177,0.164754140239737,0.201796681642605,0.0777362382885641,0.0655512586555509,0.0572095598200074
24,"WALKING_DOWNSTAIRS",-0.357977012262807,0.473813858171311,0.00060722715078125,-0.00178973367657102,0.00158596908701705,-0.0110864673520739,-0.00542059818872258,-0.00324392715457386,1.00771389122159,-0.141061413171631,0.00906403301216477,0.277313146715107,0.160698714637517,0.158590636127316,0.58012131754798,0.597149144516449,0.35484496899975,0.276053791312329,0.156619121085571,0.150982149095772
25,"WALKING_DOWNSTAIRS",-0.429924410531157,0.48048742191466,-0.00118406569759469,0.000517823859628907,-0.000401701409456358,-0.00148877109035789,-0.00353147307769397,0.00465116149769343,0.765784624097522,-0.0156689052426886,-0.0657360149092134,0.113211692795143,0.0904029326499178,0.107887851074573,0.189183676101756,0.400586304273991,0.235796209200555,0.109658502253202,0.0879821218438545,0.104935190542791
26,"WALKING_DOWNSTAIRS",-0.322398578499731,0.467198082634139,0.00237741545714437,-0.00110231586772016,-0.00154087817223187,0.02641036149815,-0.0100814550144716,0.00420609560295359,0.994554478140625,-0.218405165951531,-0.0465778194787969,0.200391880777237,0.106017358161508,0.0663538426883984,0.305162213061762,0.231125983304683,0.179141553118568,0.197489229196347,0.102822021962015,0.0611393000506266
27,"WALKING_DOWNSTAIRS",-0.312319342978567,0.474425456920808,0.000679397504451527,-0.000614100154270241,0.00148877132962678,0.00113279204542195,0.00149940216935281,0.00223452918174687,0.992643477308239,-0.0494083663963778,-0.204850241855469,0.00444984166703435,0.007584803333646,0.00915623346905697,0.0236248664665827,0.0163049376545758,0.010683014410632,0.00330404033486452,0.00621046263056937,0.00753484992488819
28,"WALKING_DOWNSTAIRS",-0.291348352342063,0.462724411979185,-0.000442475772705027,-0.00171340778379382,-0.00115193332895958,-0.0107288214521861,-0.00251102884887048,-0.000377078583231183,0.921262138502038,-0.0403265388009511,0.132871174438859,0.00464354939298926,0.00674820506537416,0.00876919441214935,0.0140022296322323,0.0130011371973293,0.0122800525267538,0.00330118800588851,0.00454900246971458,0.00627611697300828
29,"WALKING_DOWNSTAIRS",-0.317019522084051,0.466954070362726,-0.000297012918126693,0.000990652389217774,-0.00125734311723784,0.000279634932058269,-0.000823979497039388,-0.000146716821513672,0.965734000732422,-0.196581821640625,-0.0163610945166016,0.0055777859198992,0.0122348766251109,0.0121458276703604,0.0523384882616954,0.029145539118332,0.0250314498287536,0.00479545443784565,0.0103696399995698,0.0104557073379314
30,"WALKING_DOWNSTAIRS",-0.358569435252991,0.464665576466812,0.00104065987636169,-0.00047034101797253,-0.00197195250890045,0.00610720333206401,-0.000264576780720766,-0.0142680492504398,0.919937351965726,-0.376451392373362,-0.251566352217046,0.238095246368168,0.16466045859967,0.122494419531834,0.358937287295237,0.366111936767368,0.372534794482781,0.23713457566688,0.16202757083577,0.120797994457925
1,"SITTING",-0.633405230612481,0.546477904027143,-0.000168925659831117,-7.99119553869681e-05,0.00011396243551629,-0.0175343913704207,0.00245826241176197,0.00574725520927028,0.749855132943401,0.040738640568484,0.255758498874801,0.0458781236430803,0.0407981060476707,0.0279441738546054,0.0933408534762296,0.0857001139636123,0.0717942351785304,0.0438152691487947,0.0389021054045222,0.0261578699261225
2,"SITTING",-0.640597914078914,0.536914141147994,-0.0012505878818913,0.000123076994721569,0.000958877126735734,0.00354007663527004,-0.00247437994330741,0.0249471647888736,0.261819252769022,0.497907975641984,0.62314741717731,0.0135057758774723,0.0172252297155177,0.0149534646994779,0.0341866035702902,0.0340352289518377,0.0309166802504651,0.00940702820903984,0.0131380748173276,0.0109851436634369
3,"SITTING",-0.622759912663006,0.535505063738877,0.00103651881919351,0.00153378673272085,-0.000681414563164063,-0.0222395449618089,0.000564925723527645,-0.00515840626914663,0.903529814059495,0.0539888599873888,0.155898059064435,0.17829655106646,0.139894660987377,0.0711096941517177,0.400961801261145,0.227086971437786,0.151433781694541,0.177940941230919,0.13914921689373,0.0698156574910448
4,"SITTING",-0.627074988752137,0.530636923654938,-0.000459481162344703,0.00156284402143344,0.00104659883608812,-0.0132362719370118,-0.000457145647045313,-0.00546662182510834,0.974841945546875,0.056483633775,-0.066512603874375,0.00502686843134099,0.0078199374406829,0.0123297866376182,0.0388072947246555,0.0297426287753593,0.020198928720829,0.00387462067307509,0.00610975286775668,0.00992019062011521
5,"SITTING",-0.627005048582174,0.531746441894647,-0.000639695713252841,0.00157297244643821,-0.000713729692933239,-0.102051725771147,0.0112549756218928,0.0211652053262962,0.9782235890625,-0.000760478342666902,-0.19996791996994,0.268286753969142,0.123098585135721,0.143604136066482,0.582736229383812,0.48109601068479,0.377902891992236,0.267666488065362,0.118065293252584,0.140430017400628
6,"SITTING",-0.625400397898407,0.528575122986278,-0.00247085098330284,-0.000300649425313636,0.000311478022491477,0.0797487129688935,-0.0258255997843778,-0.00165723568599403,0.998810637372159,-0.0779784252615881,0.00294391006103722,0.262354404253873,0.152766423056509,0.14175543989709,0.516998863450595,0.635724876006459,0.33000145524717,0.2616678380907,0.151637892087145,0.136239305596032
7,"SITTING",-0.628826428187923,0.536426844069221,-0.00195785266107617,-0.00533176060153092,0.00164870408316243,-0.0594589851160644,0.0192235800402181,-0.00315714058198242,0.999733735904948,-0.24155597027627,-0.0601560394776237,0.187596303520868,0.131532049308576,0.0942501501339648,0.351958251288634,0.329835154764772,0.261711453762374,0.186341744286072,0.129101023165482,0.0881819768242173
8,"SITTING",-0.637723473721612,0.537879592146648,0.000445879008355978,-0.000196412248498302,-0.00163254215524457,-0.049627181370805,0.0111827925797554,0.0155285607971637,0.991767239453125,-0.234281580873098,-0.0922470253969667,0.266685300395717,0.183641172864513,0.144322705296981,0.567032489950072,0.572393057941593,0.315316049373211,0.266066937035964,0.181399387825876,0.142010363020106
9,"SITTING",-0.627255110153503,0.52480586322096,-0.00230954868014438,-0.00197215688418438,-0.00046608780832125,0.0447927131329797,-0.00372452779742344,-0.013743847563225,0.95423006253125,-0.130082678323134,0.0310167120951875,0.19675067362501,0.144059939930542,0.132216633740155,0.433698616122797,0.370985528698007,0.31981059877695,0.195875715335968,0.141045744764304,0.130405863700223
10,"SITTING",-0.640064220832273,0.54226746792682,-0.00227785828043388,0.00181889949751013,-0.000991067864595486,0.012249662857908,0.0013596974756684,0.00760400444011863,0.630761362891927,0.0991100445833912,0.328890247904106,0.0124454854812962,0.0234480529764843,0.0183838705247037,0.0388955249426382,0.027370004512563,0.0224497526585522,0.0114868756954179,0.0363755115965182,0.0194773602186159
11,"SITTING",-0.636047250172612,0.536138501053186,-0.000492766689645784,5.71678835869841e-05,0.000503026092373231,0.000967864108375354,-0.00226619279453685,0.00162877132007164,0.387808522582547,0.576484110681456,0.38573080473212,0.00756319315489554,0.00626511956519216,0.00656839298643837,0.0118340992183075,0.0176782516370162,0.0112012294223214,0.00683638159927662,0.00586810437213642,0.00608532122495128
12,"SITTING",-0.636147252005371,0.526417856174699,-0.000481831770649509,-0.00113375229479473,-0.000436006273529412,0.0504277020495404,-0.00977758493643995,0.00367139455442708,1.0073811904565,-0.133159393227742,0.079154182501685,0.285020003274086,0.16134268227792,0.120223687690161,0.465335674223383,0.341686346130904,0.322832204755572,0.284360390886331,0.15955382765042,0.1189567924726
13,"SITTING",-0.637966762418097,0.543318062341068,-0.000454783885281409,-0.000231314527699777,3.13320917424107e-05,0.00353243698537324,-0.0091127237516773,0.0185581620317994,-0.00958996529038584,0.563734338703141,0.812158877611671,0.0132528196489775,0.00710170630242303,0.00853407327319345,0.0200263954965275,0.0185316644127491,0.0198249532258405,0.00959446298083614,0.00661657234895022,0.00748424487887822
14,"SITTING",-0.639930771868791,0.5280379685885,0.000694872079361603,0.00275338030978819,0.00246408523033449,-0.00703619640268634,0.00336217828263426,-0.0113635169326814,0.960390156148727,0.010161931458969,0.157602085129608,0.0080493738009557,0.0131856914564342,0.0147209885951267,0.0438048140472075,0.0413890527763229,0.0290300535054179,0.00626961651835499,0.00905023500051649,0.0107144483728025
15,"SITTING",-0.641487832548184,0.537120048116988,-0.000316146926459216,-0.000985218366935381,-0.00208979790369571,0.0391311645291419,-0.000741738908227754,-0.00897801267120413,1.00544651136123,-0.145215058826536,-0.115734682243957,0.0849256776095388,0.0666876834791454,0.0616706829466915,0.169352756100327,0.139156367769053,0.14610421808857,0.0843878699131971,0.0637415774851091,0.0587135452497159
16,"SITTING",-0.64224344542724,0.54067372843905,-0.00165979414510077,-0.00243803126622622,0.000360401928581295,0.0730361960031658,-0.0228821569856386,-0.0104119125930707,0.981431883899456,-0.266477119668207,-0.108763958401548,0.210333443054766,0.144726508471515,0.140775525278134,0.377028827789664,0.495757623389474,0.263193750728166,0.209433901678632,0.142366253468286,0.136414776159287
17,"SITTING",-0.643705001715823,0.547100612406488,0.000272987398879028,0.0017152089089773,0.00272970667160662,0.0205488493465332,-0.000895762357496338,-0.0112647391224434,0.992440354125977,-0.284210668560693,-0.0278510625624341,0.112153530971763,0.0752459089252315,0.0612739271571463,0.241149526752354,0.233823010144298,0.164194034833611,0.111105307401109,0.0724216641633828,0.0551405675499453
18,"SITTING",-0.650145604617953,0.534510386258871,0.000133648676935033,-0.00107199440030652,-0.00127896316525411,-0.00177463970331086,0.000808347543807566,-0.00107655076892681,0.983793343914474,-0.0945130883917489,0.126562976538498,0.00664208307989659,0.0114731563465699,0.0133810810332668,0.0223379970686032,0.0349704135385766,0.0219787049732501,0.00644338488714203,0.00972378180820665,0.0115842022071633
19,"SITTING",-0.638986666530727,0.53209411177613,0.000278299226777932,0.00306984069129193,-3.45499583244863e-05,-0.00663283225250428,-0.00161925587657613,0.005695970957936,0.73731651318567,0.326728869446819,0.166159513028452,0.0086109123857939,0.0170986164203197,0.0148358720025467,0.0351034958901548,0.0337048636603478,0.0294463140945585,0.00598924852340058,0.0107332760877548,0.0121751373283761
20,"SITTING",-0.63978728492066,0.527870394846281,0.000502266676978954,0.000364966875265625,-0.000691495793954546,-0.00919504559666461,-0.00275758719556463,-0.00619000158415355,0.868690275149148,0.230490915037992,0.308579558515743,0.00504075687706529,0.00771280533982056,0.00848489816553772,0.0102906642666528,0.011634743308748,0.017440807592781,0.00283447226163391,0.00454403922814239,0.00516559439975919
21,"SITTING",-0.64471019186366,0.534210542443843,0.000676996795578125,-0.00185331595121875,-0.00204222117850441,-0.0323785984865239,0.00782601140042555,0.00136158874438952,0.833368294825386,-0.0328925590257454,-0.0102537824330349,0.267585997126233,0.1749787678829,0.0967405339668987,0.485795777504195,0.484727686647835,0.304405798737697,0.266844791627739,0.17378776717276,0.0951287463704177
22,"SITTING",-0.634015600138589,0.532022049722643,-0.00198442943903415,0.00264815298428679,-0.00310183615268196,-0.04314150161582,0.00987975577878402,0.0204793163802787,0.948046800982863,-0.0962663799009325,-0.129968088854587,0.0885471617091513,0.0542056854171409,0.0725409762998586,0.246536394822805,0.151451871816471,0.139726553993096,0.0870963158860303,0.0480190181560826,0.0691894699557853
23,"SITTING",-0.632606863525112,0.543306324839228,-0.00335566615413244,0.00150284781449334,0.00326299160743164,-0.00183010022066452,-0.00549891003374253,0.0050127102172124,0.765250804355216,0.208328132452803,0.195780082619485,0.0512728630750397,0.0450511382093338,0.0355753277289483,0.0973901392478722,0.110364441484338,0.0824473700391768,0.0477230920620114,0.0416492739342308,0.0303943655236581
24,"SITTING",-0.64658072741254,0.526973569734236,0.000286560079836282,-0.000599219957464384,0.000582830965040671,-0.00722576236906483,0.0021774110628989,-0.00591045741880284,0.802453589275046,0.189137802088475,0.370072659457744,0.00487350670309424,0.009642620987538,0.00898403074124332,0.0260209478451082,0.0196187351951364,0.0216899309254974,0.0044732425246799,0.00830246886780999,0.00737605637810072
25,"SITTING",-0.645271212865431,0.534248952660025,-0.000188539551267548,-0.000708031071733173,-0.000851539251090144,-0.0259418372837255,0.0119722559498606,-0.0053519181145887,0.946695511766827,-0.230607954536685,-0.16094455765905,0.235386542869294,0.17018158616555,0.148568933710353,0.398699930951726,0.570431157999535,0.415776469411105,0.23465783388777,0.167729749632344,0.14519675673481
26,"SITTING",-0.642718508921569,0.538163762448172,0.00111684291632318,0.00135269222705148,-0.00205079129092923,0.00344809248215865,0.00316354665384038,0.0117113079494584,0.514724843145032,0.605300965779447,-0.0348567295204327,0.00774136465962922,0.0102765400754171,0.0130191481452071,0.0236983540771103,0.0224849162865748,0.0190421796470806,0.00496292662449251,0.00578289908385317,0.00931461596163122
27,"SITTING",-0.647326317764691,0.533989173253796,-0.000440374594444643,-0.0010977158092808,-0.000723765360871406,0.0192168538623313,-0.00689620101260491,-0.000122892153705022,0.603767673296875,-0.0339867470561674,0.31019425440075,0.10462306013732,0.0677632945457348,0.0834780045469108,0.166616735670063,0.16311058353097,0.164904091711875,0.103296524012361,0.0652530870225153,0.0823237410998569
28,"SITTING",-0.637322526513564,0.523550153103677,0.000138389335232205,-0.000254040816831597,0.000714610712911892,0.019682883168357,-0.0044067646093737,-0.00486918547919596,0.892595499305556,-0.0588263604929449,-0.0569577076199219,0.222432453952301,0.149334860224138,0.116500906815015,0.405480985295891,0.358009995911459,0.254417832533052,0.222002709072346,0.148145907575652,0.115439169616514
29,"SITTING",-0.644086554595477,0.540324413708375,-0.000233579327576823,-0.000649997603847734,-0.00455688218151385,0.0234350654922721,-0.00838672533193802,-0.00437095365119922,0.392061142895443,0.28680643623599,0.330949020777786,0.147914992995207,0.0984040325714347,0.0773345354660988,0.40577900599779,0.335882093711767,0.205832060007529,0.146681517110749,0.0981547553961231,0.0764226136734056
30,"SITTING",-0.646017901904583,0.532835681402282,-0.00166099383367566,-0.000815561165426915,0.0024758520093067,-0.00328671621974647,-0.0242464213515373,0.00717713179396443,0.402211934909274,0.491704782754788,0.580472745561996,0.0153266528107504,0.0113090474556309,0.015038323938794,0.0279015755518557,0.0396499024305675,0.0154740374278624,0.00937430548211428,0.0100124879909516,0.00968180969627225
1,"STANDING",-0.647424789141436,0.542181337789553,-0.000182935155975118,0.00014715753495342,0.000970097969926592,-0.00746392338213591,0.00172113490805542,-0.0118553143202368,0.977478233918042,-0.230410901536498,0.1757468104148,0.00697810421256666,0.010639791182095,0.0122907643963381,0.0229355004957411,0.0255634884006621,0.0230299342914807,0.004945889406725,0.00837681284402607,0.00876405139962856
2,"STANDING",-0.636437816431621,0.536080434259956,0.000422511506952257,0.00383209891256018,0.00123216033922454,-0.0106379149534047,-0.00309232107774512,-0.00141740712391774,0.905185872568866,0.225978409043547,0.323907233875376,0.0097495158429971,0.0140478286980528,0.0173155351407111,0.0274554553976457,0.0403694434169667,0.0286609331803894,0.00642523851320128,0.00960087958683857,0.0126827188690098
3,"STANDING",-0.626821863294174,0.523984097280228,-0.00117384704759284,0.00103522744336783,-0.00110823261806327,0.0115769210258977,-0.0079794127793978,0.0242559157992154,0.277071610596468,0.702974617557672,0.269542517549616,0.0352306232084733,0.0308469340176995,0.0174672640053916,0.0784326436290451,0.0597492382477251,0.037228164241199,0.0301926099254278,0.0292784305418394,0.0161868600445767
4,"STANDING",-0.618552434144181,0.530383292649071,0.000165214202753348,-0.00171918670427358,-9.29434881141184e-05,0.00366492702268669,-0.000704013453825335,-0.00584353146349375,0.981702399037388,-0.0766868447251736,-0.188010275855301,0.049648689101475,0.0362459737854943,0.04567294858008,0.0969805591694033,0.127058124889782,0.0899752437983379,0.0486252328281659,0.03486703631442,0.0427405733117101
5,"STANDING",-0.618688514522377,0.526636277865573,0.000646045401777623,-0.00114222331723214,-0.000571305172433036,-0.0524411446581473,0.0046593505398577,0.00952883871863839,0.963953658775112,-0.00903335111364397,-0.0754461811967522,0.270006429203397,0.129128268333755,0.176602010027101,0.443619229377505,0.410384534269365,0.340598122186912,0.269526691179557,0.128289623991931,0.1759576061796
6,"STANDING",-0.629241940584033,0.524932028126183,0.00225433404328399,-0.000710832710376919,-0.00179737566108553,-0.0313849787719024,-0.00383488927644189,-0.000422842360663378,1.00687590437226,-0.0574445211731497,0.0395435847571793,0.338255958477797,0.175055540276055,0.138420324137699,0.584817682505737,0.566071353239305,0.409058409705744,0.337806017622754,0.173969894420621,0.135143616033802
7,"STANDING",-0.63369010626409,0.528953245701607,0.000126659418127948,-0.000632563048682194,8.34613361291273e-05,-0.0700582309407695,0.0118907313563694,-0.000459119730925707,1.0062083906987,-0.182162871875389,-0.0693245973627358,0.318402959022859,0.184826715586492,0.104966590237457,0.54066966218338,0.390156032557493,0.323191696911094,0.317797382776024,0.18343253830533,0.103304714461103
8,"STANDING",-0.639446137332584,0.537746712399269,0.00201027641825236,0.000506868389435764,0.000878592654403067,-0.019103825533342,0.00588955929502315,0.00405368501446846,0.70083437776331,0.194538333715538,-0.00561356214360532,0.144082771141116,0.117950770059623,0.0943269175928554,0.315192056026677,0.35285603141378,0.198566188222316,0.143342711619738,0.117395272837879,0.0928887125628764
9,"STANDING",-0.633260395877548,0.526575192320559,-0.000132460312713542,-0.00342530768947917,-0.00172263003442014,0.0356470467126913,-0.0100444561681441,-0.015618808936724,0.936785537482639,-0.0666942567688785,0.0385819540890278,0.217215889881245,0.165523073125351,0.163773142364773,0.505452606009354,0.545967077697904,0.319408528395587,0.216344501733308,0.163042658196198,0.161369674587445
10,"STANDING",-0.630802885957886,0.526857801631051,-9.52779628728691e-05,-0.000705943612555753,-0.00176167700609197,0.00834282676046165,-0.00165438936564631,-0.00362582931454368,1.0120673435902,-0.0529020743227983,0.00324177652322976,0.0700274606617924,0.0587648124149653,0.0557549585549955,0.185492551813444,0.188499253979164,0.0986164219089823,0.0693979089228306,0.0559796824964758,0.0517411964813698
11,"STANDING",-0.648352120272435,0.536229415603518,-0.000235759299805519,0.00172329460582841,-0.000232855732323471,-0.00519275658858976,0.00208869144827892,-0.000839634268009973,0.867723445578457,0.166565127676197,0.116323335294215,0.00342223272599802,0.00509704001891573,0.00686686140962795,0.00838162032094068,0.0106078309888943,0.0104946695751596,0.00294529529274108,0.00437620602824961,0.00529741199141545
12,"STANDING",-0.627365480952412,0.530601822027849,-6.03182070014343e-05,0.000646422841627818,-0.000128544703580174,0.0137841037979582,-0.00549588666328637,-0.00332892352044723,0.705794392578125,0.165643311460756,0.241980373661644,0.199155273205387,0.109472843091452,0.0897911974889931,0.353324557699907,0.250434625494943,0.230539143692843,0.198569960618871,0.108581786366192,0.0892378117399926
13,"STANDING",-0.638660676744692,0.535943050515522,-0.000412581093976861,-0.000203328995838185,0.000571677819086075,-0.00534231466349973,0.000212973732792215,-0.000239825627239556,0.743058073675987,0.259176117032621,0.334523255330318,0.00406072508970113,0.00448030633515279,0.00624865548082922,0.00903137286931982,0.012571100859625,0.0116569490899237,0.00355104904696133,0.00411799053158028,0.00554307599897402
14,"STANDING",-0.633771114374627,0.530378924305392,-0.000837380202850156,-0.00241277665185378,0.000541378863922135,0.0106458261085776,0.00174220327182812,-0.00291900374058961,0.965019841354167,-0.298185249976562,0.0100951806219492,0.0570872562323677,0.0498032833562607,0.0414670428766971,0.152336526330459,0.172142405787771,0.12999153431928,0.0563143641866174,0.0473974244547253,0.0388008757461104
15,"STANDING",-0.640021574582083,0.531960156877887,9.68761479245282e-05,-0.0015899197192217,0.00163821365648953,0.033314342503066,-0.0215049975503803,-0.00164548604596109,0.955658478042453,-0.275334799835841,-0.0688201132798305,0.266962468501997,0.170298886525984,0.133239524364797,0.436489840412085,0.525515681720677,0.414640520926129,0.266400750246079,0.16826046942849,0.130360910483813
16,"STANDING",-0.646524405206858,0.536044587757995,0.00176241177513221,0.000219948522065305,-0.000478887623223157,-0.0692970295859976,0.0187525976191707,0.00567209892058894,1.00866425307492,-0.180946295765072,-0.0790147208949978,0.259667894367027,0.167319307509386,0.138481833029095,0.452610636455186,0.57015722830774,0.322646508090505,0.259056453282356,0.166331718356764,0.136830593187313
17,"STANDING",-0.644650042632519,0.54141306130036,-0.00283382277811699,-0.00321492562341747,0.00129501714470152,0.0608875477994591,-0.0279782699249559,-0.0122458865837961,0.967440208083934,-0.337061385855349,-0.116566834230605,0.25617498420472,0.181348498537401,0.144248845539674,0.472750114324837,0.566033668560315,0.280100557900417,0.255268867160734,0.17981564013281,0.139681503041262
18,"STANDING",-0.644883880641118,0.531766726009038,-0.000380647232088934,-0.000484807523416524,0.000491250710695848,-0.0112104535744593,0.00632012460603318,0.00247174932526948,0.989945930094178,-0.204955995613153,-0.0270565207420955,0.0414788641119209,0.0415033659224544,0.0361755875363204,0.148354137553968,0.0959987204436338,0.0841227552941754,0.0407215999005161,0.0384071447354966,0.0323125648234635
19,"STANDING",-0.640136200552524,0.531160356260859,-0.000993958843351488,0.000316161636492851,0.00113743813615047,0.0336007973679307,-0.00435155290287864,-0.0134422347379208,0.99091719796661,-0.133553601749762,0.00900519573690069,0.108410553637334,0.0864386392613621,0.0678605429476919,0.261754850962952,0.176429769977549,0.141454983063952,0.107021759766249,0.0821561152987845,0.061606334532734
20,"STANDING",-0.620015042838966,0.523615488827175,-0.000718413615380458,-0.0009578672774186,-0.00167666800274422,-0.0221921911305097,0.00786805152440111,4.18466913172089e-05,1.01290444767765,-0.0752236896123352,-0.00962345458279142,0.0387375577592384,0.0274584657751187,0.0264121000044142,0.0847672349152406,0.0778315626718298,0.0665899361876145,0.0384318396300868,0.0261304177430248,0.025041330647081
21,"STANDING",-0.638450214241584,0.528022506329555,-0.00131363587911196,0.00103447117724526,-0.00239748874449333,-0.00802273251283954,-0.000473258430397647,0.00707325457669119,0.742183632481761,0.212274397712816,0.113988004595966,0.117903247881662,0.0959586410840456,0.0560077423643123,0.259246959828293,0.262766053177221,0.166863638470936,0.114929118493882,0.0939026272639644,0.0539500232292605
22,"STANDING",-0.635970111290654,0.530024347868862,-0.00356314669799231,-0.00319869939098958,-0.00362193711116071,-0.0780275530627679,0.0209822501060751,0.00724118742199901,0.964760072259425,-0.174980658514755,-0.264060715029638,0.29342333732682,0.134098098739309,0.169644935996654,0.516475454912165,0.455903921556654,0.302116572117014,0.292784388744625,0.132128005319723,0.16844905016825
23,"STANDING",-0.63701891662782,0.531094661411702,-0.000310355697601057,-0.00114283990688074,-0.000850377387309191,0.0176228392830229,0.0105413640005201,-0.00196398170181893,0.801144073196232,0.225005526403972,0.0565916095896025,0.0462751385933112,0.0419496627933936,0.0412318736793035,0.113361462854461,0.142745294838154,0.0935588361860942,0.0446579227311264,0.0375099180314154,0.0341534399586603
24,"STANDING",-0.633792633552139,0.533925468793864,-0.002004751832524,0.00490056427759556,0.000588293598944294,0.0044324272092731,-0.00271656374778958,-0.001849367199024,1.0042016150702,-0.0694728048728,0.0490522396216146,0.035986247607326,0.0399910365793308,0.0427243960868327,0.11473797749042,0.128861695410449,0.0883716380866308,0.0352368382622349,0.0358814026158931,0.0370107490888128
25,"STANDING",-0.645284430198473,0.528516493946113,0.000129703110944679,-0.000709608277498733,0.00140433035834248,0.0233357657625509,-0.00826135803923416,-0.01566801772851,0.766341766247889,0.0737818501647508,-0.158504043835431,0.190685548447674,0.149361536497456,0.139005328929751,0.334616781256612,0.485082624717295,0.373408918659812,0.189793013296182,0.147888351099893,0.136502796369211
26,"STANDING",-0.644000247065788,0.533699623254023,-0.000658505749399282,0.000190551281564612,-1.48458414215541e-05,0.0215990701307241,-0.00871043403790583,-0.0187040818659176,0.950420405665118,-0.0232061633624367,-0.122087950934647,0.0484512490041598,0.0585141759689302,0.068654803741359,0.126064457249399,0.255585385951173,0.177111436924726,0.0474736563815427,0.053695832605059,0.0659235241572701
27,"STANDING",-0.644257662074923,0.535170225480295,-0.000973940914119893,0.000699887100172168,0.00146068322712363,-0.011590347238682,0.00189142611642832,-0.00079551821993959,0.636123514385742,-0.0355677800244336,0.432281454047852,0.00681292905035373,0.009128402865007,0.00868803640263826,0.0188344190520757,0.0229893852263371,0.0138439241058684,0.00469058308099928,0.00601493100402514,0.00619317983634298
28,"STANDING",-0.627877403011471,0.519997485617467,-0.00139963126096242,-0.000778705764029074,-0.000275341424580696,0.00429367765922686,-0.0022591829968661,0.00281739184526661,0.467174974529272,0.391483574654945,0.361692390519225,0.0382138130561578,0.0312163423327935,0.0249035501392915,0.0894421939041499,0.0708189496901051,0.0534928689805543,0.0365366583966669,0.0301045455602325,0.0236962129697238
29,"STANDING",-0.650238010901402,0.53621856366494,-0.00140605224517043,-0.000119511440680524,-0.000174156592023798,-0.00401930426629246,-0.0112810135743416,0.0129605060230344,0.0822950436141836,0.652368997307692,0.569780855782452,0.0115761798697386,0.00751734579365375,0.00718556632347268,0.0192990032711733,0.0317280443814205,0.0188851810785896,0.00861712866886464,0.00602214450433051,0.00623307778649833
30,"STANDING",-0.630582348501949,0.527756207244259,0.000211570367350238,0.00139571800778218,-0.00154344649900026,0.0113249122176533,0.00998464611844465,-0.00705129645295233,0.997529353641419,0.0646561425454184,-0.0241786278399894,0.00399083958242566,0.00780332332820782,0.0111420993357887,0.0140303276198816,0.0225085489811168,0.014867285720482,0.00377192768164316,0.00592692819997428,0.00785571821141535
1,"LAYING",-0.607500418758723,0.542314873795307,0.00117859922186391,-0.000372272800509187,0.00027683917301375,0.00168286378499216,-0.00986314118471938,0.0118977795792687,0.268270731351766,0.45823108326625,0.469528501553641,0.0487659460012525,0.0409765530283185,0.0269445254006912,0.10400605929108,0.092907030768937,0.0753067602282294,0.0465042395496765,0.0402242808230691,0.0262339751705771
2,"LAYING",-0.639972861435687,0.543319446764178,0.000307852958984472,0.00218874196694417,-0.00131804502044889,0.0140344099481266,-0.00923376637417155,0.00795893936694076,0.290973123990039,0.451547607453483,0.569940240324121,0.0930324916131374,0.0557120506053754,0.0453275616910748,0.171322394647588,0.113348342030734,0.129622362929783,0.0887824447998273,0.0549207567848496,0.0434112773723007
3,"LAYING",-0.641445804875381,0.53124691328834,-0.000935370409667338,0.000262918390196572,0.000219386228470262,-0.0213545582635497,-0.00217713371620464,-0.00946992600613911,1.00719950543095,-0.0905433531316658,0.125683792937429,0.289476400415407,0.145851052126005,0.100821554042351,0.512747876947169,0.274784333933839,0.244544118421395,0.288750544381706,0.144180112310227,0.0991153994423119
4,"LAYING",-0.630853108828131,0.53893963967104,-0.00108367465139498,-0.0014759920601033,0.00137741843825897,0.00305528085343429,-0.0059711856903015,0.00344518245419792,0.521759993648727,0.28158112355,0.456019319866609,0.0109704199101125,0.0144120587419674,0.0207994569541396,0.0240125824710526,0.0495441804804257,0.0268493949262778,0.00615484850478363,0.010496971149517,0.0151832560523481
5,"LAYING",-0.631793505517319,0.544391929156741,0.000716903330745193,-0.00533407160695613,0.00157627936657302,-0.0851470826233777,0.00499657807789363,0.0165981958894211,1.00012728425481,-0.0808068625467909,-0.105280836340655,0.200980527042874,0.0993326733889916,0.108814121587951,0.388161310541525,0.320788508893446,0.286946410956816,0.200595864531064,0.0974085196353519,0.105412914058544
6,"LAYING",-0.619312733719218,0.533155429721308,-0.000611523706643777,0.00162321920067209,-0.000989318095935252,-0.0175958108185238,-0.00580511480021409,0.00210366655706963,0.978437073286732,0.0126205029316064,0.0485198766960302,0.02754988255999,0.0282354421537904,0.0250655347408946,0.10827587350286,0.0941247204464372,0.0533530457661843,0.0265358588278505,0.0237621560117759,0.0213123872135754
7,"LAYING",-0.628245480334417,0.542344552117596,-2.12597375225362e-06,9.05441952325721e-05,-0.000960356383406851,-0.000224806503295342,-0.000960971112304687,-0.000800868407817007,1.00345720247897,-0.220707295679087,-0.0938920172423888,0.00646181002854682,0.0144478335196364,0.0108184162014823,0.089732749930211,0.0324326114063963,0.0237033560095662,0.00602917722650096,0.0129115422865294,0.00949509778155288
8,"LAYING",-0.627063888985075,0.545544319226255,-0.00277629018012731,-0.00535800510368634,-0.0045405469327827,-0.127200147875376,0.03683419242068,0.00725021679602141,0.946230720891204,-0.316242285661024,-0.17373285120204,0.254761193296019,0.190524497936182,0.143056803942267,0.444767267883336,0.469171483487133,0.377984704707261,0.253922577921831,0.188493943562384,0.140625659951785
9,"LAYING",-0.62829423443831,0.530193792423973,0.000381013042585594,-0.00208072689588344,-0.00169802517370484,0.0262508734482397,-0.00532473745507656,0.00407366474869687,0.97234422078125,-0.103871350533703,0.30374791038125,0.10873695543063,0.0722033942414282,0.0555232377270741,0.284702802818977,0.190185714056633,0.134788794840752,0.107922749730211,0.0702006929463115,0.0528747073522927
10,"LAYING",-0.631643255234267,0.540400209269841,-0.00751151348491474,0.00525477240285156,0.00605932237895878,0.0174383690272713,-0.00051533670983028,0.00313264736811288,0.575638841218184,0.460651710725329,0.311550396292093,0.0361974885323638,0.0432650874766144,0.0507818968945244,0.137445940630665,0.0913426469625406,0.0566876899138228,0.0346834343142342,0.0416487488682392,0.0515482446882416
11,"LAYING",-0.643553031373099,0.539562164233576,5.4294400755484e-06,-0.000606387767898301,0.000724381478264474,-0.00501612440440515,-0.000187799060694901,0.00443933639675699,0.740661484059759,0.0168250179276864,0.27249927700466,0.143494513456429,0.0955838121292328,0.0671289204872616,0.193354023214985,0.268107519020763,0.159805606020819,0.142579356046281,0.095038408124234,0.0661130187759495
12,"LAYING",-0.629446656006305,0.529532384968032,0.000678148590073698,-0.00303844103564974,-0.00361899774568758,-0.00638787122807812,-0.0015085034375151,-0.00827659352813122,1.00763601364583,-0.160261333185505,0.0473066727916849,0.235561618958335,0.129275957868644,0.0922091768655059,0.362395725966165,0.270260756659879,0.256386177539466,0.234886873006221,0.127437011863468,0.0905610742883812
13,"LAYING",-0.624237889738574,0.553866635756983,0.000100876971292843,0.0004802761999094,-0.00152719144182901,-0.0682442684770025,0.0159284197648664,0.0117154169012235,0.786750411275202,0.00527290542516633,0.0975960931077102,0.188320465839041,0.112443722796335,0.101972153368335,0.298030610364179,0.263927511281216,0.292554742842693,0.187743927879538,0.111730926974064,0.101196700839257
14,"LAYING",-0.628268265977241,0.53002829764166,-0.00682767986892249,0.00210228857220588,0.000868159670685662,-0.0014845609850962,-0.00790797384800368,0.0150922349601477,0.527880311011029,0.371266326568636,0.28138382535242,0.0161853020853344,0.0139844702538839,0.0137213575908405,0.0216852036427739,0.0346497014444002,0.0298509906419641,0.00776598332462748,0.0103997451915354,0.0111057171310311
15,"LAYING",-0.639878645538132,0.531271312842656,-0.000169079401072936,0.00226203146554798,0.00195285277131207,-0.00324019401999479,-0.00120773914170605,-0.00147249277525901,0.990325074913194,0.0840400334711372,0.0398601811784722,0.00469846947964582,0.00934851018459772,0.0118858026255166,0.018246197621199,0.0169509634315548,0.0143927233753123,0.00404276550481901,0.00739827773915713,0.00822105705757532
16,"LAYING",-0.635895574768688,0.540818162748175,0.000272748902126205,0.000168337282917411,-0.000470868091361295,0.014470103767868,-0.000804616093595982,0.00245314409066429,0.931238082232143,-0.0792605731617188,0.0632121369823772,0.0310753327123453,0.0256703796914771,0.0233580026890793,0.0616979891498404,0.0539313872765943,0.0573327052706088,0.0304312157427825,0.0227903689507193,0.0214174956553093
17,"LAYING",-0.629857996082118,0.544133194590696,-0.00305991071532405,0.00505320208889809,0.00283023150399776,-0.0106471503813776,-0.000495999892663732,0.00947261067576739,0.929434431327025,0.079288061497007,0.12699369462456,0.00966543053739584,0.022137334313858,0.0213528415721817,0.0362560915312251,0.03993744629058,0.0355656426858509,0.00835819516148152,0.0157985253904841,0.0155882953111113
18,"LAYING",-0.645004674023998,0.539950941452853,0.00042804124292137,0.000130400516421635,-0.000403489728895553,0.00646115603641659,-0.00158011869008257,-0.00474347678518572,0.261148032338942,-0.175851810324519,-0.46099665588101,0.00818138616646778,0.0114049405766409,0.0121123665187328,0.0439030870543235,0.0308237970452116,0.0237814641471758,0.00677084186782263,0.00955342356517047,0.0104131517439795
19,"LAYING",-0.632982105564733,0.546481297539062,0.000883605068658019,0.000224335691740776,0.000352283854474398,-0.0276338960424234,0.00380467274156739,0.00885563786546837,0.59524376114844,0.348137643400138,0.106108938829015,0.165139444508155,0.10936696822452,0.0647832701980412,0.269293358713608,0.23025070815571,0.196355677896651,0.162331482807642,0.108464481184913,0.0632801138714438
20,"LAYING",-0.644304920932653,0.532399675077689,0.00163634432426059,-0.000109912148476126,-0.000867939520193474,0.0118288243089966,-0.00164031328845208,0.0132062407914111,0.204664855755974,0.733146700157374,0.51450837829784,0.0256358139044445,0.0154624719840949,0.015841920212268,0.0354095442229588,0.0537234617281212,0.0307654175847243,0.0231055411002514,0.0149371585040206,0.0142424113860809
21,"LAYING",-0.631098417193982,0.543410158735715,-0.00144984202534097,-0.00139098609956615,-0.00177601918229635,-0.0228430262686149,0.00779772362021667,-0.00820055879704731,0.999344774713542,-0.160884441092181,-0.0684979321704948,0.199331173955663,0.120877105958733,0.0657271791465147,0.339359771257478,0.27417779805345,0.222024257395651,0.197244989523531,0.117405803670536,0.0594739269928417
22,"LAYING",-0.632094880780366,0.534099353461401,4.10688279880642e-05,0.00106235296140017,-0.00113394363295291,-0.00182087338663069,0.00458952894090521,-0.00321538695726795,0.745733646733507,0.300234499842899,0.235376269886285,0.00972062363245704,0.0120321045992889,0.0165616465688905,0.0316716768837472,0.0262605510718103,0.0247766362962432,0.00470785904795556,0.00716380865137435,0.00852712860712541
23,"LAYING",-0.628040592856947,0.551631656087548,-0.000177679642152344,-0.00190058276925781,9.08911093530814e-05,-0.00361559535653971,-0.00288508058393403,-0.00392848208392864,0.646352512905226,-0.00824489971623264,0.356712800503819,0.210220365873914,0.128456391971919,0.0971384740760442,0.361205555664533,0.318722769807556,0.236107665078593,0.206406454030884,0.124903274804619,0.0935793621773646
24,"LAYING",-0.634099948248058,0.541853116633189,0.00121370178940972,-0.00163077434949651,0.00304181851737826,-0.00270943409857281,0.00136509359679036,0.000431986354774956,0.247839368074284,0.615996363802255,0.543882259309538,0.0370619351846021,0.0278668196588805,0.0311415511232487,0.0877517903901427,0.128994889732508,0.0658746094810486,0.0364260525897816,0.0272298304290669,0.0299976106314477
25,"LAYING",-0.589493794833056,0.545465416277492,-0.00131722051262093,2.79308287525685e-05,0.00211985012281571,-0.023215989195403,0.00969656770373091,-0.0044712287278339,0.964969755404538,-0.191545211029795,-0.0948616246505351,0.115145141885037,0.0784793900787876,0.0718388803092084,0.202145307399207,0.238104039560088,0.0845153820583965,0.112002560116123,0.0743662442821061,0.0644853566567571
26,"LAYING",-0.640674524519764,0.545542521691572,0.000800064726291879,0.00192232496122636,-0.00252131965277627,-0.0444252356068894,0.00950095072561986,-0.0023561108571618,0.744723105664063,0.189482829224815,0.0745137736936554,0.189789188541505,0.138497210244469,0.0699106833771698,0.414190842090885,0.352759112773743,0.180219248890231,0.189133018491717,0.137724309614171,0.0678606858890115
27,"LAYING",-0.645965995193569,0.540024018937153,0.00117838508418285,0.000506038970384291,-0.00381590641847652,0.0517882056144204,0.00538142129599599,-0.0207654178543285,0.978310150031672,-0.0367773646119191,-0.249320845198469,0.322801634118813,0.140677026168679,0.174548467947778,0.438957878080287,0.346144816398203,0.283849955338912,0.322232824729559,0.139272312413912,0.172873906639401
28,"LAYING",-0.640504095519042,0.530993926457205,-0.00172394500580762,-0.00291034342739102,0.000136344923835205,0.0534718862780178,-0.00936167673446289,-0.0257223318926367,0.960991287050781,-0.206334726857869,-0.238454913436084,0.333818544296966,0.1625359734561,0.142921048337087,0.479178940968364,0.399815113597228,0.318230620960457,0.333239693989608,0.160454482084116,0.140808383943972
29,"LAYING",-0.646299708821277,0.547413740896312,-0.00363043969125906,-0.00249320641218863,-0.00590675308072011,-0.0622992015445426,0.00925937298686594,0.00101903399343863,0.966926035192074,-0.247853177595353,-0.122116972856293,0.389445426067567,0.223928066201952,0.164978906673679,0.843858847203511,0.701762183075195,0.439959010630323,0.388989520851884,0.222376887837554,0.162345278657467
30,"LAYING",-0.642620745332159,0.529015559497116,0.000157637429838728,-0.000218922797500223,0.000591800592335045,-0.0102407724944783,0.00107858362147076,0.00262081933286676,0.497791196316964,0.208167572915625,0.370605046506339,0.102017960988876,0.0760104931312145,0.0663153736671121,0.20951525847454,0.206031683499127,0.139366448638955,0.0996485161427633,0.0751625661068708,0.0653012745268103
